File: Raman MMF/RamanGains/RamanGain20e-12.dat
// Raman gain spectrum for silica SMF fibers
// C.M.McIntosh, D.N.Christodoulidis, J.Toulouse, et. al., OAA 2000, paper OMB3-1, pp.10-12
// R.H.Stolen, C.Lee, R.K.Jain, JOSA B1, pp. 652-657, 1984.
// Gain data are normalized to the wavelength 1500nm or frequency 1.99862e+14 Hz.
// Effective core area used in calculations of the gain [1/m/W] from the gain
// coefficient [m/W] is Aeff = 20e-12
# df	RamanGain
# [ Hz ] [ 1/m/W ]
# PumpFrequency [ Hz ] 199.86e12
0.00000E+00	0
5.00000E+10	1.01128E-05
1.00000E+11	2.02256E-05
1.50000E+11	3.03384E-05
2.00000E+11	0.000040451
2.50000E+11	5.05638E-05
3.00000E+11	6.06766E-05
3.50000E+11	7.45438E-05
4.00000E+11	8.87016E-05
4.50000E+11	0.00010286
5.00000E+11	0.000117018
5.50000E+11	0.000131175
6.00000E+11	0.000153018
6.50000E+11	0.000177794
7.00000E+11	0.00020257
7.50000E+11	0.000230044
8.00000E+11	0.000265438
8.50000E+11	0.000300834
9.00000E+11	0.000336228
9.50000E+11	0.000377176
1.00000E+12	0.00041965
1.05000E+12	0.000461092
1.10000E+12	0.000497892
1.15000E+12	0.000532804
1.20000E+12	0.000559104
1.25000E+12	0.000585404
1.30000E+12	0.00062936
1.35000E+12	0.000676548
1.40000E+12	0.000721888
1.45000E+12	0.00076146
1.50000E+12	0.000801032
1.55000E+12	0.000831104
1.60000E+12	0.000858176
1.65000E+12	0.000885296
1.70000E+12	0.000913616
1.75000E+12	0.000941928
1.80000E+12	0.000970248
1.85000E+12	0.001002632
1.90000E+12	0.001038112
1.95000E+12	0.001059696
2.00000E+12	0.00107852
2.05000E+12	0.00109736
2.10000E+12	0.001116232
2.15000E+12	0.001135112
2.20000E+12	0.001154968
2.25000E+12	0.0011754
2.30000E+12	0.001195832
2.35000E+12	0.00121596
2.40000E+12	0.001234456
2.45000E+12	0.00125296
2.50000E+12	0.001271456
2.55000E+12	0.001290368
2.60000E+12	0.001309464
2.65000E+12	0.00132856
2.70000E+12	0.001347648
2.75000E+12	0.001367992
2.80000E+12	0.001390616
2.85000E+12	0.001413248
2.90000E+12	0.001432448
2.95000E+12	0.001448216
3.00000E+12	0.001463984
3.05000E+12	0.001479752
3.10000E+12	0.001494328
3.15000E+12	0.0015072
3.20000E+12	0.001520072
3.25000E+12	0.001532952
3.30000E+12	0.001545824
3.35000E+12	0.001559256
3.40000E+12	0.001574816
3.45000E+12	0.001590376
3.50000E+12	0.001601784
3.55000E+12	0.001610504
3.60000E+12	0.001619232
3.65000E+12	0.001627952
3.70000E+12	0.001636672
3.75000E+12	0.001645096
3.80000E+12	0.00165196
3.85000E+12	0.001658824
3.90000E+12	0.00166568
3.95000E+12	0.001672544
4.00000E+12	0.001679408
4.05000E+12	0.001687112
4.10000E+12	0.001696528
4.15000E+12	0.001705944
4.20000E+12	0.00171536
4.25000E+12	0.001724776
4.30000E+12	0.001734032
4.35000E+12	0.0017422
4.40000E+12	0.001750368
4.45000E+12	0.001758536
4.50000E+12	0.001766704
4.55000E+12	0.001776536
4.60000E+12	0.001786816
4.65000E+12	0.001797088
4.70000E+12	0.001807368
4.75000E+12	0.001816032
4.80000E+12	0.001822744
4.85000E+12	0.001829456
4.90000E+12	0.001836168
4.95000E+12	0.001843744
5.00000E+12	0.001857896
5.05000E+12	0.001872056
5.10000E+12	0.001886216
5.15000E+12	0.001900368
5.20000E+12	0.00192004
5.25000E+12	0.001941272
5.30000E+12	0.001962512
5.35000E+12	0.001983752
5.40000E+12	0.002005
5.45000E+12	0.00202378
5.50000E+12	0.00204078
5.55000E+12	0.00205776
5.60000E+12	0.00207476
5.65000E+12	0.00209184
5.70000E+12	0.0021092
5.75000E+12	0.00212658
5.80000E+12	0.00214396
5.85000E+12	0.00216068
5.90000E+12	0.0021772
5.95000E+12	0.0021952
6.00000E+12	0.0022206
6.05000E+12	0.0022422
6.10000E+12	0.0022587
6.15000E+12	0.00227166
6.20000E+12	0.00228372
6.25000E+12	0.00230776
6.30000E+12	0.00233226
6.35000E+12	0.00235664
6.40000E+12	0.00238072
6.45000E+12	0.0024048
6.50000E+12	0.00242888
6.55000E+12	0.0024492
6.60000E+12	0.002469
6.65000E+12	0.00248884
6.70000E+12	0.00250864
6.75000E+12	0.00253298
6.80000E+12	0.00256098
6.85000E+12	0.002589
6.90000E+12	0.002617
6.95000E+12	0.00264706
7.00000E+12	0.0026847
7.05000E+12	0.00272078
7.10000E+12	0.00275138
7.15000E+12	0.00278198
7.20000E+12	0.00281258
7.25000E+12	0.00284232
7.30000E+12	0.00287208
7.35000E+12	0.0029027
7.40000E+12	0.00293984
7.45000E+12	0.00297698
7.50000E+12	0.00300702
7.55000E+12	0.00303534
7.60000E+12	0.00306364
7.65000E+12	0.00309196
7.70000E+12	0.00312194
7.75000E+12	0.0031538
7.80000E+12	0.00318564
7.85000E+12	0.0032175
7.90000E+12	0.00324486
7.95000E+12	0.00327146
8.00000E+12	0.00329596
8.05000E+12	0.00332046
8.10000E+12	0.00334496
8.15000E+12	0.00337986
8.20000E+12	0.00341748
8.25000E+12	0.00346516
8.30000E+12	0.0035116
8.35000E+12	0.0035473
8.40000E+12	0.003583
8.45000E+12	0.00361858
8.50000E+12	0.0036535
8.55000E+12	0.00368788
8.60000E+12	0.00371834
8.65000E+12	0.0037488
8.70000E+12	0.00377928
8.75000E+12	0.0038131
8.80000E+12	0.00385404
8.85000E+12	0.0038945
8.90000E+12	0.00392608
8.95000E+12	0.00395764
9.00000E+12	0.00399338
9.05000E+12	0.00403148
9.10000E+12	0.004071
9.15000E+12	0.00411622
9.20000E+12	0.00416248
9.25000E+12	0.00419552
9.30000E+12	0.00422344
9.35000E+12	0.00425134
9.40000E+12	0.00428176
9.45000E+12	0.00431362
9.50000E+12	0.00434548
9.55000E+12	0.00437748
9.60000E+12	0.00441024
9.65000E+12	0.004443
9.70000E+12	0.00447576
9.75000E+12	0.00451154
9.80000E+12	0.0045479
9.85000E+12	0.00458454
9.90000E+12	0.00462388
9.95000E+12	0.00466322
1.00000E+13	0.00470346
1.00500E+13	0.0047443
1.01000E+13	0.00478514
1.01500E+13	0.00482614
1.02000E+13	0.00486714
1.02500E+13	0.00490816
1.03000E+13	0.00494382
1.03500E+13	0.00497594
1.04000E+13	0.00500644
1.04500E+13	0.0050362
1.05000E+13	0.00506644
1.05500E+13	0.00509862
1.06000E+13	0.0051308
1.06500E+13	0.0051592
1.07000E+13	0.00518436
1.07500E+13	0.00520954
1.08000E+13	0.0052347
1.08500E+13	0.00526076
1.09000E+13	0.00529188
1.09500E+13	0.00532304
1.10000E+13	0.00535418
1.10500E+13	0.00538532
1.11000E+13	0.0054199
1.11500E+13	0.00545528
1.12000E+13	0.00549068
1.12500E+13	0.00552246
1.13000E+13	0.00554726
1.13500E+13	0.00557204
1.14000E+13	0.00559682
1.14500E+13	0.00563394
1.15000E+13	0.00567288
1.15500E+13	0.0057118
1.16000E+13	0.00574362
1.16500E+13	0.00576486
1.17000E+13	0.0057861
1.17500E+13	0.00580732
1.18000E+13	0.00583516
1.18500E+13	0.00586348
1.19000E+13	0.00589178
1.19500E+13	0.0059201
1.20000E+13	0.0059484
1.20500E+13	0.00597672
1.21000E+13	0.00600504
1.21500E+13	0.00603308
1.22000E+13	0.00605984
1.22500E+13	0.0060826
1.23000E+13	0.00610532
1.23500E+13	0.00612808
1.24000E+13	0.0061508
1.24500E+13	0.00617348
1.25000E+13	0.00619614
1.25500E+13	0.0062188
1.26000E+13	0.00624146
1.26500E+13	0.00625914
1.27000E+13	0.0062733
1.27500E+13	0.00628746
1.28000E+13	0.00630162
1.28500E+13	0.00631576
1.29000E+13	0.00632992
1.29500E+13	0.00634408
1.30000E+13	0.00635094
1.30500E+13	0.00635378
1.31000E+13	0.0063566
1.31500E+13	0.00635944
1.32000E+13	0.00635704
1.32500E+13	0.00634288
1.33000E+13	0.00632872
1.33500E+13	0.00631458
1.34000E+13	0.00627672
1.34500E+13	0.0062368
1.35000E+13	0.00621908
1.35500E+13	0.00620138
1.36000E+13	0.00618368
1.36500E+13	0.00616328
1.37000E+13	0.00614132
1.37500E+13	0.00611936
1.38000E+13	0.00609648
1.38500E+13	0.00606888
1.39000E+13	0.0060413
1.39500E+13	0.0060137
1.40000E+13	0.0059818
1.40500E+13	0.00594802
1.41000E+13	0.00591422
1.41500E+13	0.00588644
1.42000E+13	0.00587942
1.42500E+13	0.00587242
1.43000E+13	0.00587646
1.43500E+13	0.00588568
1.44000E+13	0.00589756
1.44500E+13	0.00603478
1.45000E+13	0.00618458
1.45500E+13	0.00628018
1.46000E+13	0.00614602
1.46500E+13	0.0059454
1.47000E+13	0.00571182
1.47500E+13	0.00552522
1.48000E+13	0.005325
1.48500E+13	0.0050992
1.49000E+13	0.00485428
1.49500E+13	0.00457026
1.50000E+13	0.00423762
1.50500E+13	0.00396616
1.51000E+13	0.00368012
1.51500E+13	0.0034004
1.52000E+13	0.00314796
1.52500E+13	0.00296034
1.53000E+13	0.00280444
1.53500E+13	0.00267048
1.54000E+13	0.00256622
1.54500E+13	0.00249278
1.55000E+13	0.00242258
1.55500E+13	0.00235888
1.56000E+13	0.00229518
1.56500E+13	0.00223148
1.57000E+13	0.00218204
1.57500E+13	0.00213484
1.58000E+13	0.00208764
1.58500E+13	0.00204044
1.59000E+13	0.00199324
1.59500E+13	0.00195476
1.60000E+13	0.001920768
1.60500E+13	0.001886784
1.61000E+13	0.0018528
1.61500E+13	0.001818808
1.62000E+13	0.001784704
1.62500E+13	0.00175024
1.63000E+13	0.001715768
1.63500E+13	0.001681304
1.64000E+13	0.001646832
1.64500E+13	0.001615952
1.65000E+13	0.001595728
1.65500E+13	0.001575504
1.66000E+13	0.00155528
1.66500E+13	0.001535056
1.67000E+13	0.001514832
1.67500E+13	0.001495704
1.68000E+13	0.001481544
1.68500E+13	0.001467384
1.69000E+13	0.001453224
1.69500E+13	0.001439064
1.70000E+13	0.001424912
1.70500E+13	0.001411672
1.71000E+13	0.001406008
1.71500E+13	0.001400344
1.72000E+13	0.00139468
1.72500E+13	0.001389024
1.73000E+13	0.001399984
1.73500E+13	0.00141592
1.74000E+13	0.001431848
1.74500E+13	0.001447784
1.75000E+13	0.001463712
1.75500E+13	0.00147964
1.76000E+13	0.001495576
1.76500E+13	0.001524136
1.77000E+13	0.001555256
1.77500E+13	0.001586368
1.78000E+13	0.001628264
1.78500E+13	0.001697904
1.79000E+13	0.001775984
1.79500E+13	0.001873872
1.80000E+13	0.00197832
1.80500E+13	0.00202552
1.81000E+13	0.00207272
1.81500E+13	0.00209706
1.82000E+13	0.00209012
1.82500E+13	0.00205116
1.83000E+13	0.0020061
1.83500E+13	0.00196004
1.84000E+13	0.001903416
1.84500E+13	0.001846792
1.85000E+13	0.001790168
1.85500E+13	0.001723816
1.86000E+13	0.0016514
1.86500E+13	0.001578448
1.87000E+13	0.001467688
1.87500E+13	0.00137028
1.88000E+13	0.00130756
1.88500E+13	0.00124508
1.89000E+13	0.001183104
1.89500E+13	0.001121136
1.90000E+13	0.001068408
1.90500E+13	0.001020376
1.91000E+13	0.000988216
1.91500E+13	0.000956056
1.92000E+13	0.000923904
1.92500E+13	0.000891744
1.93000E+13	0.000859592
1.93500E+13	0.00083128
1.94000E+13	0.000802968
1.94500E+13	0.000774654
1.95000E+13	0.000746336
1.95500E+13	0.000718014
1.96000E+13	0.00068969
1.96500E+13	0.000661368
1.97000E+13	0.000636622
1.97500E+13	0.000626554
1.98000E+13	0.000616486
1.98500E+13	0.000606416
1.99000E+13	0.000596348
1.99500E+13	0.00058628
2.00000E+13	0.00057621
2.00500E+13	0.000566142
2.01000E+13	0.000557792
2.01500E+13	0.00055213
2.02000E+13	0.000546468
2.02500E+13	0.000540804
2.03000E+13	0.000535142
2.03500E+13	0.00052948
2.04000E+13	0.000523818
2.04500E+13	0.000518156
2.05000E+13	0.000513436
2.05500E+13	0.00050939
2.06000E+13	0.000505344
2.06500E+13	0.0005013
2.07000E+13	0.000497256
2.07500E+13	0.00049321
2.08000E+13	0.000490326
2.08500E+13	0.000488556
2.09000E+13	0.000486784
2.09500E+13	0.000485016
2.10000E+13	0.000483244
2.10500E+13	0.000481474
2.11000E+13	0.000479704
2.11500E+13	0.000478556
2.12000E+13	0.00047787
2.12500E+13	0.000477184
2.13000E+13	0.000476498
2.13500E+13	0.000475812
2.14000E+13	0.000475126
2.14500E+13	0.00047444
2.15000E+13	0.000473756
2.15500E+13	0.00047307
2.16000E+13	0.00047356
2.16500E+13	0.000474184
2.17000E+13	0.000474806
2.17500E+13	0.00047543
2.18000E+13	0.000476052
2.18500E+13	0.000476676
2.19000E+13	0.0004773
2.19500E+13	0.000477922
2.20000E+13	0.000478546
2.20500E+13	0.000480628
2.21000E+13	0.000485346
2.21500E+13	0.000490064
2.22000E+13	0.000494784
2.22500E+13	0.000499504
2.23000E+13	0.000504222
2.23500E+13	0.00050894
2.24000E+13	0.00051366
2.24500E+13	0.00051838
2.25000E+13	0.000523098
2.25500E+13	0.000527818
2.26000E+13	0.000532536
2.26500E+13	0.000537256
2.27000E+13	0.00054663
2.27500E+13	0.000564884
2.28000E+13	0.00058314
2.28500E+13	0.000601394
2.29000E+13	0.000619648
2.29500E+13	0.000637902
2.30000E+13	0.000656156
2.30500E+13	0.000683978
2.31000E+13	0.000725794
2.31500E+13	0.00076761
2.32000E+13	0.000809424
2.32500E+13	0.000854656
2.33000E+13	0.000901488
2.33500E+13	0.000943568
2.34000E+13	0.000975552
2.34500E+13	0.001007528
2.35000E+13	0.001039512
2.35500E+13	0.001054056
2.36000E+13	0.001065856
2.36500E+13	0.001077648
2.37000E+13	0.001089448
2.37500E+13	0.001101248
2.38000E+13	0.001109264
2.38500E+13	0.001115336
2.39000E+13	0.0011214
2.39500E+13	0.001127472
2.40000E+13	0.001133544
2.40500E+13	0.001139608
2.41000E+13	0.001136904
2.41500E+13	0.001128056
2.42000E+13	0.001119208
2.42500E+13	0.00111036
2.43000E+13	0.001101512
2.43500E+13	0.001092664
2.44000E+13	0.001083816
2.44500E+13	0.00107356
2.45000E+13	0.001062552
2.45500E+13	0.001051536
2.46000E+13	0.001040528
2.46500E+13	0.001029512
2.47000E+13	0.001018504
2.47500E+13	0.001007488
2.48000E+13	0.00099648
2.48500E+13	0.000980432
2.49000E+13	0.000963448
2.49500E+13	0.000946464
2.50000E+13	0.00092948
2.50500E+13	0.000911536
2.51000E+13	0.000892656
2.51500E+13	0.000873784
2.52000E+13	0.00085916
2.52500E+13	0.000845
2.53000E+13	0.00083084
2.53500E+13	0.000816688
2.54000E+13	0.000802528
2.54500E+13	0.000788372
2.55000E+13	0.00076834
2.55500E+13	0.000747106
2.56000E+13	0.000725872
2.56500E+13	0.000700388
2.57000E+13	0.00066735
2.57500E+13	0.000634312
2.58000E+13	0.000612902
2.58500E+13	0.000595208
2.59000E+13	0.000577512
2.59500E+13	0.000559476
2.60000E+13	0.000540596
2.60500E+13	0.000521716
2.61000E+13	0.0004996
2.61500E+13	0.000476002
2.62000E+13	0.000453196
2.62500E+13	0.000439032
2.63000E+13	0.000425052
2.63500E+13	0.00041141
2.64000E+13	0.00039777
2.64500E+13	0.00038413
2.65000E+13	0.000370488
2.65500E+13	0.000356848
2.66000E+13	0.000344762
2.66500E+13	0.00033671
2.67000E+13	0.00032866
2.67500E+13	0.000320608
2.68000E+13	0.000312556
2.68500E+13	0.000304506
2.69000E+13	0.000296454
2.69500E+13	0.000288404
2.70000E+13	0.000280352
2.70500E+13	0.0002723
2.71000E+13	0.000266242
2.71500E+13	0.000260896
2.72000E+13	0.000255552
2.72500E+13	0.000250208
2.73000E+13	0.000245868
2.73500E+13	0.000243038
2.74000E+13	0.000240208
2.74500E+13	0.00023738
2.75000E+13	0.00023455
2.75500E+13	0.00023172
2.76000E+13	0.00022889
2.76500E+13	0.00022606
2.77000E+13	0.000223232
2.77500E+13	0.000220402
2.78000E+13	0.000218022
2.78500E+13	0.000215716
2.79000E+13	0.00021341
2.79500E+13	0.000211104
2.80000E+13	0.000208798
2.80500E+13	0.000206492
2.81000E+13	0.000204188
2.81500E+13	0.000201882
2.82000E+13	0.000199655
2.82500E+13	0.000197782
2.83000E+13	0.000195909
2.83500E+13	0.000194036
2.84000E+13	0.000192162
2.84500E+13	0.00019029
2.85000E+13	0.000188416
2.85500E+13	0.000186766
2.86000E+13	0.000185811
2.86500E+13	0.000184855
2.87000E+13	0.000183899
2.87500E+13	0.000182944
2.88000E+13	0.000181988
2.88500E+13	0.000181032
2.89000E+13	0.000180077
2.89500E+13	0.000180698
2.90000E+13	0.000181458
2.90500E+13	0.000182217
2.91000E+13	0.000182976
2.91500E+13	0.000184562
2.92000E+13	0.000186176
2.92500E+13	0.00018779
2.93000E+13	0.000189403
2.93500E+13	0.00019059
2.94000E+13	0.000191525
2.94500E+13	0.000192461
2.95000E+13	0.000193396
2.95500E+13	0.000194332
2.96000E+13	0.000195267
2.96500E+13	0.000196203
2.97000E+13	0.000197715
2.97500E+13	0.000199485
2.98000E+13	0.000201254
2.98500E+13	0.000203024
2.99000E+13	0.000204794
2.99500E+13	0.000206564
3.00000E+13	0.000208332
3.00500E+13	0.000212268
3.01000E+13	0.000216916
3.01500E+13	0.000221566
3.02000E+13	0.000226214
3.02500E+13	0.000230864
3.03000E+13	0.000235512
3.03500E+13	0.000239462
3.04000E+13	0.000243082
3.04500E+13	0.000246702
3.05000E+13	0.000250322
3.05500E+13	0.00025428
3.06000E+13	0.000259198
3.06500E+13	0.000264118
3.07000E+13	0.000269036
3.07500E+13	0.000273956
3.08000E+13	0.000278876
3.08500E+13	0.00028374
3.09000E+13	0.000288458
3.09500E+13	0.000293176
3.10000E+13	0.000297894
3.10500E+13	0.000302612
3.11000E+13	0.000307486
3.11500E+13	0.000314564
3.12000E+13	0.000321644
3.12500E+13	0.000328724
3.13000E+13	0.000335804
3.13500E+13	0.000342884
3.14000E+13	0.000351996
3.14500E+13	0.000361436
3.15000E+13	0.000370876
3.15500E+13	0.000380314
3.16000E+13	0.000389754
3.16500E+13	0.00039857
3.17000E+13	0.000407064
3.17500E+13	0.000415556
3.18000E+13	0.00042405
3.18500E+13	0.000430472
3.19000E+13	0.000432496
3.19500E+13	0.000434518
3.20000E+13	0.000436542
3.20500E+13	0.000438564
3.21000E+13	0.000440588
3.21500E+13	0.000441662
3.22000E+13	0.000439892
3.22500E+13	0.000438124
3.23000E+13	0.000436354
3.23500E+13	0.000434584
3.24000E+13	0.000432816
3.24500E+13	0.000431046
3.25000E+13	0.000428362
3.25500E+13	0.000423642
3.26000E+13	0.000418922
3.26500E+13	0.000414202
3.27000E+13	0.000409482
3.27500E+13	0.000404362
3.28000E+13	0.00039587
3.28500E+13	0.000387376
3.29000E+13	0.000378884
3.29500E+13	0.000370392
3.30000E+13	0.000366246
3.30500E+13	0.000363414
3.31000E+13	0.00036058
3.31500E+13	0.000357748
3.32000E+13	0.000353084
3.32500E+13	0.000346006
3.33000E+13	0.000338928
3.33500E+13	0.000331852
3.34000E+13	0.000324776
3.34500E+13	0.000317352
3.35000E+13	0.000308738
3.35500E+13	0.000300126
3.36000E+13	0.000291512
3.36500E+13	0.0002829
3.37000E+13	0.000274286
3.37500E+13	0.000266004
3.38000E+13	0.000259534
3.38500E+13	0.000253064
3.39000E+13	0.000246596
3.39500E+13	0.000240126
3.40000E+13	0.000233656
3.40500E+13	0.000229128
3.41000E+13	0.000224704
3.41500E+13	0.000220278
3.42000E+13	0.000215852
3.42500E+13	0.000211428
3.43000E+13	0.00020824
3.43500E+13	0.00020691
3.44000E+13	0.00020558
3.44500E+13	0.000204248
3.45000E+13	0.000202918
3.45500E+13	0.000201588
3.46000E+13	0.000200258
3.46500E+13	0.000199442
3.47000E+13	0.00019875
3.47500E+13	0.000198058
3.48000E+13	0.000197366
3.48500E+13	0.000197
3.49000E+13	0.000197
3.49500E+13	0.000197
3.50000E+13	0.000197
3.50500E+13	0
1.00000E+14	0